Folder: X-Ray-Diffraction

Note: README.md
# X-Ray-Diffraction
For my PHYS 360B lab

File: PowderMetal_Peaks
#2Theta (deg)	Counts
35.7	801
41.7	682
60.9	506
73.1	488
77.1	184
92.1	239
103.2	311
107.2	250