Folder: X-Ray-Diffraction/Expt - Powder Metal

Note: README.md
# X-Ray-Diffraction
For my PHYS 360B lab

File: PowderMetal_Intensity
#2Theta (deg)	Relative Intensity I/I1	 a0_a (Ang) 	 a0_b (Ang) 	 a0_w (Ang) 	 hkl
35.7	1.0	4.35239	4.36318	4.35598	111
41.7	0.851436	4.32822	4.33895	4.33178	200
60.9	0.63171	4.29887	4.30953	4.30242	220
73.1	0.609238	4.28975	4.30038	4.29328	311
77.1	0.229713	4.28154	4.29215	4.28507	222
92.1	0.298377	4.27952	4.29013	4.28305	400
103.2	0.388265	4.28415	4.29478	4.28769	331
107.2	0.31211	4.27968	4.29029	4.2832	420